Folder: Scientific-Report/Data UV Vis/G-ZnO50Persen

Note: README.md
## **About the Project** 

---

This project presents the results of my undergraduate physics research.
The study focuses on the synthesis of Graphene Oxide/ZnO to analyze the crystal structure, particle size, absorbance level, and bandgap energy of the synthesized material.
The main objective is to understand how the combination of Graphene Oxide and ZnO affects the optical properties and structural characteristics of the material.

Data analysis was performed using several software tools, including Xâ€™Pert HighScore Plus, Origin, ImageJ, and PowDLL, to comprehensively process and interpret the characterization results of the material.

File: 50%.csv
sample3;;sample4;
Wavelength (nm);%R;Wavelength (nm);Abs
800;933.614.254;800;1.029.862.761
797;9.397.416.115;797;1.027.444.124
794;9.385.168.076;794;1.026.805.162
791;9.383.859.634;791;10.264.678
788;9.406.199.455;788;1.025.520.682
785;9.449.701.309;785;1.024.467.707
782;9.445.320.129;782;1.025.306.821
779;9.460.902.214;779;1.023.110.271
776;9.493.743.896;776;1.022.591.591
773;9.482.622.147;773;1.022.965.312
770;9.507.462.502;770;102.167.654
767;9.544.668.198;767;1.019.884.825
764;95.548.563;764;1.019.978.046
761;9.541.570.663;761;1.018.349.528
758;958.138.752;758;1.017.139.912
755;9.588.459.969;755;1.017.062.783
752;9.607.163.429;752;1.016.331.911
749;9.650.424.004;749;1.016.011
746;9.639.414.787;746;1.015.777.946
743;9.623.782.158;743;101.539.433
740;9.649.694.443;740;1.015.199.304
737;963.757.515;737;1.014.998.436
734;965.555.191;734;1.014.378.905
731;9.644.953.728;731;1.015.003.562
728;963.329.792;728;1.015.119.791
725;9.582.037.926;725;1.016.649.127
722;9.585.259.438;722;1.018.117.666
719;9.551.768.303;719;1.019.759.178
716;9.597.002.983;716;1.016.948.581
713;9.632.630.348;713;101.577.425
710;9.649.440.765;710;1.015.535.712
707;9.690.790.176;707;1.014.180.064
704;972.700.882;704;1.011.126.637
701;9.797.857.285;701;1.008.878.827
698;9.804.797.173;698;1.006.927.371
695;9.855.000.496;695;1.005.926.132
692;9.873.002.052;692;1.004.123.449
689;9.931.228.638;689;1.003.011.942
686;9.936.658.859;686;100.178.504
683;9.975.494.385;683;1.000.559.688
680;1.000.105.953;680;0.998692
677;1.001.708.031;677;0.998663
674;1.005.147.076;674;0.996235
671;1.007.933.426;671;0.995813
668;1.010.143.661;668;0.99511
665;1.013.691.616;665;0.993698
662;101.737.175;662;0.993197
659;1.019.987.011;659;0.991288
656;1.020.056.915;656;0.991258
653;1.022.004.032;653;0.989938
650;1.024.432.659;650;0.989016
647;1.027.817.726;647;0.988545
644;103.114.996;644;0.986773
641;1.030.360.603;641;0.986614
638;1.032.842.064;638;0.98542
635;1.035.151.386;635;0.984207
632;1.036.990.356;632;0.983338
629;1.040.029.049;629;0.981928
626;1.041.127.872;626;0.981689
623;1.045.518.398;623;0.980812
620;1.046.823.788;620;0.980109
617;1.050.239.086;617;0.978791
614;1.051.673.698;614;0.978606
611;1.050.422.001;611;0.977541
608;1.055.369.568;608;0.976305
605;1.058.478.832;605;0.974794
602;1.059.736.443;602;0.974081
599;1.062.333.393;599;0.973455
596;1.066.061.592;596;0.972419
593;1.066.881.657;593;0.971508
590;1.067.839.241;590;0.970659
587;1.071.196.842;587;0.96923
584;1.072.984.791;584;0.968716
581;1.076.472.187;581;0.967227
578;1.078.872.776;578;0.967261
575;1.081.338.882;575;0.965685
572;1.084.571.743;572;0.964566
569;1.086.098.289;569;0.964192
566;1.086.608.505;566;0.963895
563;1.087.789.059;563;0.963248
560;1.089.075.947;560;0.963221
557;1.088.954.735;557;0.962184
554;1.091.217.136;554;0.962154
551;1.092.104.053;551;0.96201
548;1.093.235.493;548;0.961035
545;1.093.166.542;545;0.961266
542;1.094.319.153;542;0.960421
539;1.095.881.081;539;0.959865
536;1.097.328.377;536;0.959531
533;1.102.058.601;533;0.958009
530;1.105.103.302;530;0.956039
527;1.109.425.449;527;0.954287
524;1.116.153.812;524;0.952534
521;1.120.871.353;521;0.949672
518;1.125.906.754;518;0.947622
515;1.133.630.466;515;0.945009
512;1.138.604.927;512;0.943192
509;1.143.071.461;509;0.941341
506;1.148.959.064;506;0.939652
503;1.151.072.121;503;0.937868
500;1.156.475.258;500;0.936561
497;1.161.663.437;497;0.934634
494;1.164.459.705;494;0.933213
491;116.699.543;491;0.932199
488;1.171.672.344;488;0.930326
485;1.176.108.742;485;0.929489
482;1.177.466.965;482;0.928855
479;1.179.796.124;479;0.928008
476;118.116.703;476;0.926803
473;1.184.174.538;473;0.926752
470;1.189.432.049;470;0.92411
467;1.194.736.099;467;0.921869
464;1.202.514.076;464;0.919459
461;1.205.757.618;461;0.91888
458;1.210.028.744;458;0.916551
455;1.216.910.839;455;0.915381
452;1.220.480.347;452;0.914108
449;1.228.447.819;449;0.911233
446;1.233.049.965;446;0.90919
443;1.235.414.791;443;0.908204
440;1.241.943.264;440;0.906096
437;1.248.816.395;437;0.904089
434;1.252.009.392;434;0.901809
431;1.260.559.082;431;0.899012
428;1.262.354.088;428;0.898918
425;127.043.438;425;0.896143
422;1.272.238.922;422;0.895828
419;1.280.132.389;419;0.89373
416;1.279.028.034;416;0.892079
413;1.284.598.732;413;0.891964
410;1.290.164.852;410;0.890784
407;1.285.185.623;407;0.890535
404;1.284.673.405;404;0.891409
401;128.137.331;401;0.893604
398;1.261.110.878;398;0.899007
395;1.237.013.721;395;0.907275
392;1.203.214.645;392;0.920009
389;1.149.810.028;389;0.939753
386;1.079.911.995;386;0.970149
383;9.803.358.078;383;1.010.214.567
380;8.768.374.443;380;1.060.634.851
377;782.750.988;377;1.107.661.605
374;7.210.228.443;374;1.142.777.562
371;6.936.956.406;371;1.157.448.649
368;6.838.561.058;368;1.167.086.482
365;6.779.657.364;365;116.888.833
362;6.773.817.539;362;1.166.502.237
359;6.780.180.454;359;1.163.379.788
356;6.886.647.701;356;1.164.672.852
353;691.479.826;353;1.155.171.514
350;7.234.620.094;350;113.763.988
347;8.132.904.053;347;108.928.144
344;8.190.061.569;344;1.087.628.841
341;8.210.289.001;341;1.084.317.565
338;8.199.332.237;338;1.082.403.779
335;8.254.543.304;335;1.085.025.549
332;8.216.071.129;332;1.081.134.677
329;8.272.866.249;329;1.083.185.792
326;8.327.690.125;326;1.083.476.067
323;8.333.337.784;323;1.079.366.446
320;8.338.195.801;320;1.076.871.157
317;8.465.173.721;317;1.070.509.791
314;8.443.974.495;314;1.069.608.808
311;8.578.304.291;311;1.071.220.875
308;8.549.674.988;308;1.072.031.617
305;8.587.871.552;305;1.064.855.337
302;865.291.214;302;1.070.489.526
299;8.600.749.969;299;1.066.578.388
296;8.633.422.852;296;1.060.254.574
293;8.713.523.865;293;1.064.048.052
290;8.675.398.827;290;1.060.380.697
287;8.742.525.101;287;1.059.479.356
284;8.844.370.842;284;1.055.395.126
281;8.920.467.377;281;1.048.716.784
278;8.927.759.171;278;1.048.769.236
275;8.973.782.539;275;1.050.146.699
272;8.983.424.187;272;1.043.238.997
269;9.042.151.451;269;1.041.406.631
266;907.675.457;266;1.043.553.591
263;9.108.901.024;263;1.042.458.892
260;9.213.028.908;260;1.036.889.553
257;9.281.751.633;257;1.030.832.529
254;930.850.029;254;102.798.748
251;9.487.089.157;251;1.023.768.783
248;9.482.658.386;248;1.017.597.914
245;9.734.408.379;245;101.049.161
242;9.892.146.111;242;1.001.804.829
239;1.006.440.544;239;0.996714
236;1.025.433.731;236;0.988474
233;1.043.403.625;233;0.980665
230;1.068.951.225;230;0.97128
227;1.085.284.138;227;0.960632
224;1.096.951.866;224;0.959229
221;1.109.665.394;221;0.955647
218;1.128.618.717;218;0.946217
215;11.600.914;215;0.939161
212;1.181.846.333;212;0.922368
209;1.219.494.438;209;0.91263
206;1.287.757.874;206;0.88721
203;1.388.818.455;203;0.86216
200;1.507.779.026;200;0.823768
;;;
sample3;;;
sample3;;;
Collection Time: 19/07/2025 12:54:50;;;
Operator Name  :;;;
Scan Software Version: 4.20(470);;;
Parameter List :;;;
Instrument                        Cary 100;;;
Instrument Version                12.00;;;
Start (nm)                        800.00;;;
Stop (nm)                         200.00;;;
X Mode                            Nanometers;;;
Y Mode                            %R;;;
UV-Vis Scan Rate (nm/min)         600.000;;;
UV-Vis Data Interval (nm)         1.000;;;
UV-Vis Ave. Time (sec)            0.100;;;
UV-Vis SBW (nm)                   2.0;;;
Beam Mode                         Double;;;
Signal-to-noise Mode              Off;;;
UV Source                         On;;;
Vis Source                        On;;;
Source Changeover (nm)            350.00;;;
Baseline Correction               On;;;
Baseline Type                     Baseline correction;;;
Baseline File Name;;;
Baseline Std Ref File Name;;;
Cycle Mode                        Off;;;
Comments;;;
Method Log     :;;;
Method Name    :;;;
Date/Time stamp: 19/07/2025 11:45:35;;;
Method Modifications:;;;
Auto Lamps Off Changed: 19/07/2025 12:00:26; Old:0; New:1;
Baseline Correction Changed: 19/07/2025 12:00:26; Old:0; New:1;
Y mode Changed: 19/07/2025 12:51:46; Old:Abs; New:%R;
End Method Modifications;;;
<SBW (nm)> ; 2.00;;
<Energy> ; 171.00;;
<Current Wavelength> ; 200.00;;
;;;
sample4;;;
sample4;;;
Collection Time: 19/07/2025 12:58:48;;;
Operator Name  :;;;
Scan Software Version: 4.20(470);;;
Parameter List :;;;
Instrument                        Cary 100;;;
Instrument Version                12.00;;;
Start (nm)                        800.00;;;
Stop (nm)                         200.00;;;
X Mode                            Nanometers;;;
Y Mode                            Abs;;;
UV-Vis Scan Rate (nm/min)         600.000;;;
UV-Vis Data Interval (nm)         1.000;;;
UV-Vis Ave. Time (sec)            0.100;;;
UV-Vis SBW (nm)                   2.0;;;
Beam Mode                         Double;;;
Signal-to-noise Mode              Off;;;
UV Source                         On;;;
Vis Source                        On;;;
Source Changeover (nm)            350.00;;;
Baseline Correction               On;;;
Baseline Type                     Baseline correction;;;
Baseline File Name;;;
Baseline Std Ref File Name;;;
Cycle Mode                        Off;;;
Comments;;;
Method Log     :;;;
Method Name    :;;;
Date/Time stamp: 19/07/2025 11:45:35;;;
Method Modifications:;;;
Auto Lamps Off Changed: 19/07/2025 12:00:26; Old:0; New:1;
Baseline Correction Changed: 19/07/2025 12:00:26; Old:0; New:1;
Y mode Changed: 19/07/2025 12:51:46; Old:Abs; New:%R;
Y mode Changed: 19/07/2025 12:58:28; Old:%R; New:Abs;
End Method Modifications;;;
<SBW (nm)> ; 2.00;;
<Energy> ; 172.00;;
<Current Wavelength> ; 200.00;;